onset	duration	trial_type	response_time	accuracy	stimtype	nback
2.0163769721984863	1.0	scenes_1back	0.8656890392303467	1	scenes	1
4.0171990394592285	1.0	scenes_1back	0.6868658065795898	1	scenes	1
6.018082857131958	1.0	scenes_1back	0.793032169342041	1	scenes	1
8.018898963928223	1.0	scenes_1back	0.5470199584960938	1	scenes	1
10.019676923751831	1.0	scenes_1back	0.9275860786437988	0	scenes	1
12.020539999008179	1.0	scenes_1back	0.718897819519043	1	scenes	1
14.00461483001709	1.0	scenes_1back	0.5968220233917236	1	scenes	1
16.005520820617676	1.0	scenes_1back	0.7918441295623779	1	scenes	1
18.006319999694824	1.0	scenes_1back	0.5452048778533936	1	scenes	1
20.007179021835327	1.0	scenes_1back	0.551163911819458	1	scenes	1
24.025437831878662	1.0	characters_1back	0.799429178237915	1	chinese_characters	1
26.00956702232361	1.0	characters_1back	0.7281777858734131	1	chinese_characters	1
28.010427951812744	1.0	characters_1back	0.940410852432251	0	chinese_characters	1
30.011270999908447	1.0	characters_1back	0.6475908756256104	1	chinese_characters	1
32.01210594177246	1.0	characters_1back	0.4509398937225342	1	chinese_characters	1
34.01295495033264	1.0	characters_1back	0.6580588817596436	1	chinese_characters	1
36.01378297805786	1.0	characters_1back	0.7713809013366699	1	chinese_characters	1
38.014604806900024	1.0	characters_1back	0.5435101985931396	1	chinese_characters	1
40.01542592048645	1.0	characters_1back	0.5377590656280518	1	chinese_characters	1
42.01616883277893	1.0	characters_1back	0.5581049919128418	1	chinese_characters	1
46.01790499687195	1.0	scenes_2back	0.5084478855133057	1	scenes	2
48.01869297027588	1.0	scenes_2back	0.6297528743743896	1	scenes	2
50.0195198059082	1.0	scenes_2back	0.9019851684570312	1	scenes	2
52.02027988433838	1.0	scenes_2back	0.8693151473999023	1	scenes	2
54.02117085456848	1.0	scenes_2back	0.664618968963623	1	scenes	2
56.00533103942871	1.0	scenes_2back	0.6753389835357666	1	scenes	2
58.00612783432007	1.0	scenes_2back	0.7116050720214844	1	scenes	2
60.006999015808105	1.0	scenes_2back	0.8608088493347168	1	scenes	2
62.0077908039093	1.0	scenes_2back	0.7120740413665771	1	scenes	2
64.00860500335693	1.0	scenes_2back	n/a	0	scenes	2
68.0268759727478	1.0	faces_2back	0.657181978225708	1	faces	2
70.01101803779602	1.0	faces_2back	0.6780929565429688	1	faces	2
72.01187896728516	1.0	faces_2back	0.5703089237213135	1	faces	2
74.01274800300598	1.0	faces_2back	0.7983219623565674	1	faces	2
76.0137128829956	1.0	faces_2back	0.6186001300811768	1	faces	2
78.01433181762695	1.0	faces_2back	0.7500481605529785	1	faces	2
80.01520800590515	1.0	faces_2back	0.7561748027801514	1	faces	2
82.01604390144348	1.0	faces_2back	n/a	0	faces	2
84.0168719291687	1.0	faces_2back	0.890639066696167	1	faces	2
86.01765990257263	1.0	faces_2back	0.7249429225921631	1	faces	2
90.01953196525574	1.0	characters_2back	0.5762019157409668	1	chinese_characters	2
92.02019691467285	1.0	characters_2back	0.46859312057495117	1	chinese_characters	2
94.02102184295654	1.0	characters_2back	0.5528411865234375	1	chinese_characters	2
96.0219099521637	1.0	characters_2back	0.499021053314209	0	chinese_characters	2
98.02268385887146	1.0	characters_2back	0.6102750301361084	1	chinese_characters	2
100.02346992492676	1.0	characters_2back	0.6284871101379395	1	chinese_characters	2
102.02430987358093	1.0	characters_2back	0.6217730045318604	1	chinese_characters	2
104.02526688575745	1.0	characters_2back	0.7407820224761963	1	chinese_characters	2
106.00920581817627	1.0	characters_2back	0.7709901332855225	1	chinese_characters	2
108.01009488105774	1.0	characters_2back	0.6751880645751953	1	chinese_characters	2
112.01173996925354	1.0	faces_1back	0.578665018081665	1	faces	1
114.01252889633179	1.0	faces_1back	0.538093090057373	1	faces	1
116.013347864151	1.0	faces_1back	0.5261790752410889	1	faces	1
118.01438283920288	1.0	faces_1back	0.4851830005645752	1	faces	1
120.01504397392273	1.0	faces_1back	0.5395989418029785	1	faces	1
122.01586890220642	1.0	faces_1back	0.6198921203613281	1	faces	1
124.01667380332947	1.0	faces_1back	0.5220551490783691	1	faces	1
126.01752400398254	1.0	faces_1back	0.4643089771270752	1	faces	1
128.01833581924438	1.0	faces_1back	0.7055342197418213	1	faces	1
130.0191569328308	1.0	faces_1back	0.8897368907928467	1	faces	1
154.0123918056488	1.0	scenes_1back	0.4552891254425049	1	scenes	1
156.01316690444946	1.0	scenes_1back	0.7313880920410156	1	scenes	1
158.01404094696045	1.0	scenes_1back	0.6157610416412354	1	scenes	1
160.0148890018463	1.0	scenes_1back	0.5509378910064697	1	scenes	1
162.01571893692017	1.0	scenes_1back	0.656174898147583	1	scenes	1
164.01650381088257	1.0	scenes_1back	0.5724802017211914	1	scenes	1
166.01734280586243	1.0	scenes_1back	0.679563045501709	1	scenes	1
168.01811385154724	1.0	scenes_1back	0.5439660549163818	1	scenes	1
170.01893496513367	1.0	scenes_1back	0.604193925857544	1	scenes	1
172.01974081993103	1.0	scenes_1back	0.6225590705871582	1	scenes	1
176.0214068889618	1.0	characters_1back	0.6068511009216309	1	chinese_characters	1
178.02227091789246	1.0	characters_1back	0.5281310081481934	1	chinese_characters	1
180.02312684059143	1.0	characters_1back	0.6553280353546143	1	chinese_characters	1
182.02387285232544	1.0	characters_1back	0.7855410575866699	1	chinese_characters	1
184.02474880218506	1.0	characters_1back	0.5858030319213867	1	chinese_characters	1
186.02557682991028	1.0	characters_1back	0.47105908393859863	1	chinese_characters	1
188.0096538066864	1.0	characters_1back	0.6960721015930176	1	chinese_characters	1
190.01052594184875	1.0	characters_1back	n/a	0	chinese_characters	1
192.01131796836853	1.0	characters_1back	n/a	0	chinese_characters	1
194.01228404045105	1.0	characters_1back	0.7524538040161133	1	chinese_characters	1
198.0138590335846	1.0	scenes_2back	0.6831619739532471	1	scenes	2
200.0146520137787	1.0	scenes_2back	0.6013689041137695	1	scenes	2
202.01551985740662	1.0	scenes_2back	0.6316089630126953	1	scenes	2
204.01630091667175	1.0	scenes_2back	0.6178679466247559	1	scenes	2
206.01712703704834	1.0	scenes_2back	0.6520979404449463	1	scenes	2
208.01793789863586	1.0	scenes_2back	0.6274459362030029	1	scenes	2
210.0187509059906	1.0	scenes_2back	0.6335470676422119	0	scenes	2
212.0195848941803	1.0	scenes_2back	0.91680908203125	1	scenes	2
214.02048301696777	1.0	scenes_2back	0.6549849510192871	1	scenes	2
216.02131700515747	1.0	scenes_2back	0.5562329292297363	1	scenes	2
220.02291989326477	1.0	faces_2back	0.44475293159484863	1	faces	2
222.02375888824463	1.0	faces_2back	0.6219780445098877	1	faces	2
224.0245258808136	1.0	faces_2back	0.6682860851287842	1	faces	2
226.0254349708557	1.0	faces_2back	0.6643750667572021	1	faces	2
228.02619791030884	1.0	faces_2back	0.7446930408477783	1	faces	2
230.01031494140625	1.0	faces_2back	0.6236739158630371	1	faces	2
232.01119899749756	1.0	faces_2back	0.8068399429321289	1	faces	2
234.01196694374084	1.0	faces_2back	0.6930370330810547	1	faces	2
236.01285791397095	1.0	faces_2back	0.7202789783477783	1	faces	2
238.01375889778137	1.0	faces_2back	0.6634769439697266	1	faces	2
242.01531386375427	1.0	characters_2back	0.7200009822845459	1	chinese_characters	2
244.01612281799316	1.0	characters_2back	0.6373181343078613	1	chinese_characters	2
246.0169608592987	1.0	characters_2back	0.5354890823364258	1	chinese_characters	2
248.01778984069824	1.0	characters_2back	0.7747340202331543	1	chinese_characters	2
250.01862597465515	1.0	characters_2back	0.7417569160461426	0	chinese_characters	2
252.01946687698364	1.0	characters_2back	0.8253340721130371	0	chinese_characters	2
254.02027583122253	1.0	characters_2back	0.9494490623474121	1	chinese_characters	2
256.0211799144745	1.0	characters_2back	0.6185760498046875	1	chinese_characters	2
258.0218918323517	1.0	characters_2back	0.6849110126495361	1	chinese_characters	2
260.02275586128235	1.0	characters_2back	0.6251511573791504	1	chinese_characters	2
264.02440786361694	1.0	faces_1back	0.519597053527832	1	faces	1
266.0251929759979	1.0	faces_1back	0.6718800067901611	1	faces	1
268.02606081962585	1.0	faces_1back	n/a	0	faces	1
270.0268008708954	1.0	faces_1back	0.9043970108032227	1	faces	1
272.0110549926758	1.0	faces_1back	0.8521909713745117	1	faces	1
274.01182103157043	1.0	faces_1back	n/a	0	faces	1
276.01262402534485	1.0	faces_1back	0.7497649192810059	1	faces	1
278.0134708881378	1.0	faces_1back	0.9919381141662598	1	faces	1
280.0143539905548	1.0	faces_1back	0.9711208343505859	1	faces	1
282.0151288509369	1.0	faces_1back	0.8593959808349609	1	faces	1
306.0083589553833	1.0	scenes_1back	0.6199169158935547	1	scenes	1
308.009174823761	1.0	scenes_1back	0.575214147567749	1	scenes	1
310.00999093055725	1.0	scenes_1back	0.522454023361206	1	scenes	1
312.0107979774475	1.0	scenes_1back	0.6466870307922363	1	scenes	1
314.0116410255432	1.0	scenes_1back	0.6248579025268555	1	scenes	1
316.0124759674072	1.0	scenes_1back	0.5961430072784424	1	scenes	1
318.0133059024811	1.0	scenes_1back	0.9113469123840332	1	scenes	1
320.0141568183899	1.0	scenes_1back	0.6395251750946045	1	scenes	1
322.0149528980255	1.0	scenes_1back	0.4697880744934082	1	scenes	1
324.0158188343048	1.0	scenes_1back	0.4520070552825928	1	scenes	1
328.01736998558044	1.0	characters_1back	0.4805760383605957	1	chinese_characters	1
330.0182948112488	1.0	characters_1back	0.5206902027130127	1	chinese_characters	1
332.0191059112549	1.0	characters_1back	0.5488770008087158	1	chinese_characters	1
334.0199398994446	1.0	characters_1back	0.5051689147949219	1	chinese_characters	1
336.02073097229004	1.0	characters_1back	0.6104469299316406	1	chinese_characters	1
338.02150893211365	1.0	characters_1back	0.6237740516662598	1	chinese_characters	1
340.02233600616455	1.0	characters_1back	0.5350019931793213	1	chinese_characters	1
342.0232479572296	1.0	characters_1back	0.5701229572296143	1	chinese_characters	1
344.0239670276642	1.0	characters_1back	0.595430850982666	1	chinese_characters	1
346.02482295036316	1.0	characters_1back	0.6816840171813965	1	chinese_characters	1
350.0098190307617	1.0	scenes_2back	0.5647969245910645	1	scenes	2
352.0106418132782	1.0	scenes_2back	0.4390602111816406	1	scenes	2
354.0114998817444	1.0	scenes_2back	0.5322661399841309	1	scenes	2
356.0123088359833	1.0	scenes_2back	0.6174960136413574	1	scenes	2
358.0131230354309	1.0	scenes_2back	0.5317389965057373	1	scenes	2
360.01386189460754	1.0	scenes_2back	0.6830360889434814	1	scenes	2
362.01477694511414	1.0	scenes_2back	0.6970429420471191	1	scenes	2
364.015576839447	1.0	scenes_2back	0.6444351673126221	1	scenes	2
366.01645588874817	1.0	scenes_2back	0.7286090850830078	1	scenes	2
368.0172028541565	1.0	scenes_2back	0.7259390354156494	1	scenes	2
372.01885986328125	1.0	faces_2back	0.4413950443267822	1	faces	2
374.0196650028229	1.0	faces_2back	0.442673921585083	1	faces	2
376.02049589157104	1.0	faces_2back	0.5668690204620361	1	faces	2
378.02131485939026	1.0	faces_2back	0.7231240272521973	1	faces	2
380.0222268104553	1.0	faces_2back	0.9993510246276855	1	faces	2
382.023010969162	1.0	faces_2back	0.9454739093780518	1	faces	2
384.0239589214325	1.0	faces_2back	n/a	0	faces	2
386.02467799186707	1.0	faces_2back	0.6339898109436035	1	faces	2
388.0254158973694	1.0	faces_2back	0.6963050365447998	1	faces	2
390.02631402015686	1.0	faces_2back	0.7745068073272705	1	faces	2
394.01123881340027	1.0	characters_2back	0.6286661624908447	1	chinese_characters	2
396.0121178627014	1.0	characters_2back	0.5028891563415527	1	chinese_characters	2
398.0129008293152	1.0	characters_2back	0.7501540184020996	1	chinese_characters	2
400.0137288570404	1.0	characters_2back	0.6423549652099609	1	chinese_characters	2
402.0146098136902	1.0	characters_2back	0.7175490856170654	1	chinese_characters	2
404.01540088653564	1.0	characters_2back	0.7328150272369385	1	chinese_characters	2
406.01616883277893	1.0	characters_2back	0.727200984954834	1	chinese_characters	2
408.0169789791107	1.0	characters_2back	0.8153388500213623	1	chinese_characters	2
410.0178098678589	1.0	characters_2back	0.9935691356658936	1	chinese_characters	2
412.01868081092834	1.0	characters_2back	0.7987890243530273	1	chinese_characters	2
416.02030086517334	1.0	faces_1back	0.5752921104431152	1	faces	1
418.0210919380188	1.0	faces_1back	0.6205868721008301	1	faces	1
420.0219428539276	1.0	faces_1back	0.5157639980316162	1	faces	1
422.0227859020233	1.0	faces_1back	0.7499539852142334	1	faces	1
424.02358889579773	1.0	faces_1back	0.6642019748687744	1	faces	1
426.0244779586792	1.0	faces_1back	0.5933868885040283	1	faces	1
428.0252740383148	1.0	faces_1back	0.6427347660064697	0	faces	1
430.0260570049286	1.0	faces_1back	0.7079048156738281	1	faces	1
432.0269248485565	1.0	faces_1back	0.5781979560852051	1	faces	1
434.02768301963806	1.0	faces_1back	0.7743408679962158	1	faces	1
