SubjID,RunNumber,Feedback,Version,Counterbalance,TrialNumber,TrialOnset,ChoiceOnset,Condition,LeftGrid,RightGrid,CorrectAnswer,Response,Accuracy,RT
self-tracking_0101,1,n,4,2,1,16.016366958618164,20.528825044631958,Hard,"[6, 11, 5, 10, 7, 8, 9, 3]","[6, 9, 5, 11, 10, 8, 7, 4]",2,2,1,1.1697678565979004
self-tracking_0101,1,n,4,2,2,24.004753828048706,28.517098903656006,Hard,"[7, 3, 1, 11, 5, 2, 6, 12]","[12, 3, 11, 6, 5, 2, 1, 8]",1,1,1,2.1558871269226074
self-tracking_0101,1,n,4,2,3,32.00974988937378,36.52197885513306,Hard,"[12, 8, 11, 3, 6, 2, 4, 9]","[8, 12, 6, 10, 7, 2, 3, 11]",2,2,1,1.4706239700317383
self-tracking_0101,1,n,4,2,4,40.01474905014038,44.52686285972595,Hard,"[12, 9, 2, 1, 7, 5, 11, 8]","[9, 7, 5, 2, 11, 8, 1, 6]",1,2,0,2.2395331859588623
self-tracking_0101,1,n,4,2,5,48.003010988235474,52.5317919254303,Easy,"[10, 7, 9, 5]","[9, 10, 5, 4]",1,1,1,1.1697709560394287
self-tracking_0101,1,n,4,2,6,56.00775504112244,60.520015001297,Easy,"[11, 4, 12, 10]","[11, 12, 4, 2]",2,2,1,1.3035449981689453
self-tracking_0101,1,n,4,2,7,64.01273989677429,68.52499103546143,Easy,"[11, 1, 10, 8]","[5, 11, 10, 1]",2,2,1,1.7380149364471436
self-tracking_0101,1,n,4,2,8,72.00102400779724,76.53001403808594,Easy,"[12, 3, 5, 10]","[12, 3, 8, 5]",2,1,0,2.0555639266967773
self-tracking_0101,1,n,4,2,9,80.00602293014526,84.51806902885437,Easy,"[9, 10, 1, 2]","[1, 9, 10, 11]",1,1,1,1.4706079959869385
self-tracking_0101,1,n,4,2,10,88.01101803779602,92.52308988571167,Easy,"[6, 3, 1, 4]","[6, 1, 12, 3]",2,2,1,1.4037280082702637
self-tracking_0101,1,n,4,2,11,96.01572704315186,100.52796983718872,Easy,"[12, 4, 3, 8]","[12, 9, 3, 4]",2,2,1,1.2534441947937012
self-tracking_0101,1,n,4,2,12,104.00396394729614,108.53306603431702,Easy,"[6, 4, 3, 10]","[3, 10, 6, 9]",1,1,1,1.2366859912872314
self-tracking_0101,1,n,4,2,13,112.00957703590393,116.5213508605957,Hard,"[4, 6, 3, 12, 7, 11, 8, 5]","[2, 4, 8, 6, 11, 7, 3, 12]",2,2,1,1.1363611221313477
self-tracking_0101,1,n,4,2,14,120.01392889022827,124.52605891227722,Hard,"[11, 6, 8, 1, 7, 5, 2, 10]","[7, 10, 8, 2, 1, 5, 6, 4]",1,1,1,1.4204671382904053
self-tracking_0101,1,n,4,2,15,128.0022919178009,132.5310468673706,Hard,"[3, 11, 5, 7, 8, 9, 12, 10]","[12, 5, 11, 7, 8, 9, 3, 4]",2,2,1,1.2700660228729248
self-tracking_0101,1,n,4,2,16,136.00695490837097,140.51933598518372,Hard,"[8, 1, 12, 4, 7, 3, 11, 5]","[4, 3, 7, 1, 11, 8, 9, 2]",1,2,0,1.9718890190124512
self-tracking_0101,1,n,4,2,17,160.00527596473694,164.51732897758484,Easy,"[3, 2, 1, 8]","[2, 3, 1, 12]",1,1,1,1.6711859703063965
self-tracking_0101,1,n,4,2,18,168.01025295257568,172.5223228931427,Easy,"[3, 5, 10, 7]","[3, 5, 7, 9]",1,1,1,1.1864631175994873
self-tracking_0101,1,n,4,2,19,176.01498889923096,180.52731895446777,Easy,"[7, 1, 8, 5]","[5, 8, 7, 6]",1,1,1,1.3703300952911377
self-tracking_0101,1,n,4,2,20,184.00327682495117,188.53225994110107,Easy,"[6, 9, 2, 5]","[2, 9, 6, 8]",2,2,1,1.3202509880065918
self-tracking_0101,1,n,4,2,21,192.00826501846313,196.52059698104858,Hard,"[12, 6, 5, 3, 7, 9, 8, 2]","[2, 3, 8, 6, 5, 7, 4, 11]",1,2,0,1.988900899887085
self-tracking_0101,1,n,4,2,22,200.01322388648987,204.52532291412354,Hard,"[5, 3, 10, 4, 7, 9, 11, 6]","[9, 3, 4, 5, 7, 10, 1, 8]",1,2,0,1.8548951148986816
self-tracking_0101,1,n,4,2,23,208.00148701667786,212.53024697303772,Hard,"[11, 6, 8, 2, 4, 10, 7, 3]","[7, 10, 2, 4, 11, 8, 6, 9]",1,1,1,1.4037649631500244
self-tracking_0101,1,n,4,2,24,216.0062608718872,220.51859402656555,Hard,"[3, 6, 12, 9, 8, 4, 2, 1]","[7, 9, 8, 5, 6, 12, 4, 3]",2,2,1,1.5206718444824219
self-tracking_0101,1,n,4,2,25,224.01115894317627,228.52359795570374,Hard,"[3, 8, 4, 6, 5, 10, 9, 12]","[8, 12, 9, 4, 6, 10, 5, 11]",1,2,0,1.8883540630340576
self-tracking_0101,1,n,4,2,26,232.01626682281494,236.52853298187256,Hard,"[10, 2, 1, 11, 12, 6, 7, 4]","[1, 2, 6, 11, 12, 7, 10, 3]",2,2,1,1.6042790412902832
self-tracking_0101,1,n,4,2,27,240.00448203086853,244.53321385383606,Hard,"[2, 11, 6, 10, 5, 1, 3, 12]","[11, 5, 6, 2, 8, 10, 1, 7]",2,1,0,1.6376991271972656
self-tracking_0101,1,n,4,2,28,248.00953483581543,252.52148294448853,Hard,"[11, 2, 6, 4, 7, 8, 3, 9]","[7, 2, 3, 6, 11, 12, 4, 8]",2,2,1,0.869041919708252
self-tracking_0101,1,n,4,2,29,256.0142889022827,260.52657890319824,Easy,"[6, 7, 10, 8]","[7, 10, 12, 6]",2,2,1,1.286797046661377
self-tracking_0101,1,n,4,2,30,264.0025248527527,268.53153586387634,Easy,"[7, 3, 11, 8]","[1, 11, 7, 3]",2,2,1,1.487354040145874
self-tracking_0101,1,n,4,2,31,272.0074758529663,276.5198588371277,Easy,"[12, 11, 2, 6]","[2, 12, 11, 1]",1,1,1,1.921746015548706
self-tracking_0101,1,n,4,2,32,280.0125198364258,284.52450299263,Easy,"[7, 6, 2, 10]","[9, 2, 6, 7]",2,2,1,1.320206880569458
self-tracking_0101,1,n,4,2,33,304.0105128288269,308.5228838920593,Hard,"[9, 7, 2, 5, 10, 11, 8, 12]","[9, 11, 3, 7, 5, 10, 2, 1]",2,2,1,1.6711030006408691
self-tracking_0101,1,n,4,2,34,312.015517950058,316.5278420448303,Hard,"[12, 7, 10, 3, 11, 9, 1, 6]","[9, 3, 11, 10, 12, 5, 1, 7]",2,2,1,1.6711328029632568
self-tracking_0101,1,n,4,2,35,320.0037958621979,324.5324969291687,Hard,"[8, 6, 5, 9, 3, 12, 4, 1]","[7, 5, 8, 9, 10, 6, 12, 3]",2,2,1,1.4538919925689697
self-tracking_0101,1,n,4,2,36,328.00883293151855,332.5207550525665,Hard,"[1, 5, 8, 9, 2, 7, 3, 12]","[8, 2, 12, 7, 9, 1, 5, 10]",1,2,0,2.072291851043701
self-tracking_0101,1,n,4,2,37,336.01350498199463,340.5258388519287,Easy,"[9, 11, 3, 7]","[11, 7, 3, 6]",1,1,1,1.1028671264648438
self-tracking_0101,1,n,4,2,38,344.0017340183258,348.53081798553467,Easy,"[5, 6, 11, 12]","[5, 6, 11, 7]",1,1,1,0.885653018951416
self-tracking_0101,1,n,4,2,39,352.00678396224976,356.5190680027008,Easy,"[11, 8, 5, 7]","[7, 5, 8, 10]",1,1,1,1.1029949188232422
self-tracking_0101,1,n,4,2,40,360.01178789138794,364.5238268375397,Easy,"[10, 6, 8, 2]","[6, 10, 8, 4]",2,2,1,1.269963026046753
self-tracking_0101,1,n,4,2,41,368.00006794929504,372.52882194519043,Easy,"[11, 6, 7, 12]","[11, 7, 12, 3]",1,1,1,0.9524960517883301
self-tracking_0101,1,n,4,2,42,376.00477385520935,380.5170650482178,Easy,"[8, 3, 11, 5]","[3, 8, 11, 6]",1,1,1,1.1029648780822754
self-tracking_0101,1,n,4,2,43,384.0097699165344,388.52210903167725,Easy,"[7, 4, 2, 1]","[2, 7, 1, 6]",1,1,1,1.6710758209228516
self-tracking_0101,1,n,4,2,44,392.0147159099579,396.52710795402527,Easy,"[7, 3, 6, 1]","[3, 7, 6, 10]",2,2,1,1.069530963897705
self-tracking_0101,1,n,4,2,45,400.00305104255676,404.5318138599396,Hard,"[7, 12, 10, 11, 5, 6, 2, 3]","[12, 11, 5, 8, 7, 6, 10, 9]",2,2,1,0.7854301929473877
self-tracking_0101,1,n,4,2,46,408.00806283950806,412.52017283439636,Hard,"[5, 11, 2, 8, 9, 12, 7, 6]","[8, 6, 5, 11, 9, 2, 7, 10]",1,1,1,1.9049580097198486
self-tracking_0101,1,n,4,2,47,416.0127098560333,420.5251090526581,Hard,"[7, 6, 4, 8, 2, 10, 11, 5]","[4, 10, 7, 11, 8, 2, 3, 6]",2,1,0,1.8716299533843994
self-tracking_0101,1,n,4,2,48,424.00108885765076,428.5300929546356,Hard,"[7, 1, 4, 11, 10, 8, 2, 3]","[1, 6, 4, 10, 7, 11, 2, 8]",2,1,0,2.37300705909729
