onset	duration	trial_type	response_time	accuracy	motion_coherence	SSD	stop_success
7.515999999999622	1.7560000000012224	stop	n/a	n/a	0.1	0.3	1
12.015999999999622	0.7299999999995634	go	0.72	0	0.1	n/a	n/a
19.01599999999962	0.819999999999709	go	0.819	0	0.0	n/a	n/a
22.76599999999962	0.5709999999999127	go	0.57	1	-0.7	n/a	n/a
28.014999999999418	0.7880000000004657	go	0.785	1	0.7	n/a	n/a
35.51499999999942	0.5709999999999127	go	0.569	1	0.7	n/a	n/a
41.01499999999942	0.7540000000008149	go	0.752	1	0.3	n/a	n/a
46.26499999999942	0.9040000000004511	go	0.902	1	-0.1	n/a	n/a
49.26499999999942	1.754000000000815	stop	n/a	n/a	0.0	0.3	1
54.01499999999942	1.757000000001426	stop	n/a	n/a	-0.1	0.325	1
58.51499999999942	0.5889999999999418	go	0.587	1	-0.3	n/a	n/a
62.01499999999942	0.47000000000116415	go	0.469	1	0.7	n/a	n/a
68.76399999999921	1.754000000000815	stop	n/a	n/a	0.7	0.3	1
72.51399999999921	0.6040000000011787	stop	0.602	1	0.3	0.3	0
75.51399999999921	0.5250000000014552	stop	0.521	1	-0.7	0.325	0
83.01399999999921	0.588000000001557	go	0.585	1	0.3	n/a	n/a
86.51399999999921	0.570000000001528	go	0.569	1	-0.3	n/a	n/a
91.76399999999921	0.7580000000016298	go	0.755	1	0.3	n/a	n/a
95.01399999999921	0.6540000000004511	stop	0.652	1	-0.3	0.275	0
100.76399999999921	0.6870000000017171	go	0.685	1	0.0	n/a	n/a
104.26399999999921	0.38800000000082946	go	0.387	1	-0.3	n/a	n/a
108.76300000000083	0.5709999999999127	go	0.569	1	0.1	n/a	n/a
113.26300000000083	0.7709999999988213	go	0.769	1	0.1	n/a	n/a
117.26300000000083	0.5540000000000873	go	0.552	1	-0.1	n/a	n/a
120.26300000000083	0.6379999999990105	go	0.635	0	0.0	n/a	n/a
126.01300000000083	0.6039999999993597	go	0.602	1	-0.7	n/a	n/a
131.51300000000083	0.5540000000000873	go	0.552	1	-0.1	n/a	n/a
134.51300000000083	0.48699999999917054	go	0.486	1	-0.7	n/a	n/a
140.01300000000083	1.753999999998996	stop	n/a	n/a	-0.3	0.25	1
144.01300000000083	1.7529999999987922	stop	n/a	n/a	0.1	0.35	1
148.26200000000063	0.4210000000002765	go	0.419	0	0.0	n/a	n/a
152.26200000000063	0.5379999999986467	go	0.535	1	0.1	n/a	n/a
156.76200000000063	1.2039999999997235	go	1.202	0	-0.1	n/a	n/a
162.26200000000063	1.5709999999999127	go	1.569	1	0.0	n/a	n/a
170.51200000000063	1.7529999999987922	stop	n/a	n/a	-0.1	0.375	1
174.01200000000063	0.5370000000002619	go	0.535	1	0.7	n/a	n/a
179.26200000000063	0.43699999999989814	go	0.435	1	-0.7	n/a	n/a
182.26100000000042	0.6540000000004511	go	0.652	1	-0.7	n/a	n/a
187.76100000000042	0.9049999999988358	go	0.902	1	-0.7	n/a	n/a
197.51100000000042	0.5540000000000873	go	0.552	1	0.7	n/a	n/a
201.01100000000042	0.7539999999989959	go	0.752	0	0.1	n/a	n/a
206.01100000000042	0.48799999999937427	go	0.486	1	0.7	n/a	n/a
215.76100000000042	0.6039999999993597	go	0.602	1	0.1	n/a	n/a
223.51000000000022	0.6209999999991851	go	0.619	1	0.3	n/a	n/a
226.76000000000022	1.753999999998996	stop	n/a	n/a	0.0	0.325	1
230.26000000000022	0.45499999999992724	go	0.452	0	0.0	n/a	n/a
238.51000000000022	0.6080000000001746	stop	0.605	1	-0.7	0.3	0
242.26000000000022	1.7549999999991996	stop	n/a	n/a	0.7	0.275	1
250.01000000000022	0.569999999999709	go	0.569	1	-0.3	n/a	n/a
253.26000000000022	0.6039999999993597	go	0.602	1	-0.1	n/a	n/a
257.0100000000002	0.5540000000000873	go	0.552	1	0.3	n/a	n/a
263.5100000000002	0.5370000000002619	stop	0.535	1	0.3	0.275	0
267.2600000000002	0.7070000000003347	go	0.705	1	-0.3	n/a	n/a
270.509	0.7710000000006403	go	0.769	1	-0.1	n/a	n/a
275.009	0.5709999999999127	go	0.569	1	0.3	n/a	n/a
278.509	0.5540000000000873	go	0.552	1	-0.3	n/a	n/a
288.259	0.5709999999999127	go	0.569	1	0.3	n/a	n/a
292.009	1.7530000000006112	stop	n/a	n/a	-0.3	0.25	1
298.259	0.5869999999995343	go	0.586	1	-0.7	n/a	n/a
307.7579999999998	0.7710000000006403	go	0.769	0	0.0	n/a	n/a
314.5079999999998	0.6710000000002765	go	0.669	0	0.0	n/a	n/a
324.5079999999998	0.5540000000000873	go	0.552	1	-0.7	n/a	n/a
329.5079999999998	0.569999999999709	go	0.569	1	0.7	n/a	n/a
333.0079999999998	0.4709999999995489	go	0.469	1	-0.7	n/a	n/a
338.0079999999998	0.5380000000004657	go	0.536	1	0.7	n/a	n/a
341.2569999999996	0.7209999999995489	go	0.719	1	-0.3	n/a	n/a
347.2569999999996	0.6380000000008295	go	0.635	1	-0.3	n/a	n/a
350.5069999999996	0.9539999999997235	go	0.952	1	0.0	n/a	n/a
356.5069999999996	0.8880000000008295	go	0.886	1	-0.1	n/a	n/a
361.0069999999996	1.3540000000011787	go	1.352	0	-0.1	n/a	n/a
364.7569999999996	1.7530000000006112	stop	n/a	n/a	0.3	0.275	1
368.5069999999996	0.555000000000291	go	0.553	1	0.3	n/a	n/a
372.2569999999996	1.7530000000006112	stop	n/a	n/a	0.0	0.35	1
375.7569999999996	0.569999999999709	go	0.569	1	-0.1	n/a	n/a
380.0069999999996	0.5040000000008149	go	0.502	1	-0.3	n/a	n/a
383.0059999999994	0.4710000000013679	stop	0.469	1	0.7	0.3	0
387.0059999999994	0.5380000000004657	stop	0.535	1	0.1	0.4	0
394.2559999999994	1.754000000000815	stop	n/a	n/a	-0.1	0.375	1
397.7559999999994	0.5370000000002619	stop	0.536	1	-0.7	0.275	0
404.0059999999994	0.7870000000002619	go	0.785	1	0.1	n/a	n/a
407.5059999999994	0.6210000000010041	go	0.619	1	0.1	n/a	n/a
411.0059999999994	0.9369999999998981	go	0.935	1	0.1	n/a	n/a
414.7559999999994	0.6040000000011787	go	0.602	1	0.7	n/a	n/a
421.0059999999994	0.570000000001528	go	0.569	1	0.3	n/a	n/a
